{
  "id": "5e661bedf6b9d607bd9fc06a",
  "link": [
    {
      "rel": "self",
      "href": "Document/5e661bedf6b9d607bd9fc06a/_history/19"
    }
  ],
  "updated": "2020-11-24T10:38:18.510Z",
  "category": [
    {
      "label": "Record needs review | v16 (2020-11-19T11:41:35.257Z)",
      "scheme": "http://hl7.org/fhir/tag",
      "term": "http://fhir.blackpear.com/tag/needs-review"
    },
    {
      "label": "Record needs review | v17 (2020-11-20T16:38:39.729Z)",
      "scheme": "http://hl7.org/fhir/tag",
      "term": "http://fhir.blackpear.com/tag/needs-review"
    },
    {
      "label": "Record needs review | v18 (2020-11-20T16:48:58.669Z)",
      "scheme": "http://hl7.org/fhir/tag",
      "term": "http://fhir.blackpear.com/tag/needs-review"
    },
    {
      "label": "Record needs review | v19 (2020-11-24T10:38:18.322Z)",
      "scheme": "http://hl7.org/fhir/tag",
      "term": "http://fhir.blackpear.com/tag/needs-review"
    }
  ],
  "content": {
    "type": "document",
    "resourceType": "Bundle",
    "entry": [
      {
        "content": {
          "subject": {
            "reference": "Patient/500207"
          },
          "asserter": {
            "reference": "Practitioner/2395"
          },
          "severity": {
            "coding": [
              {
                "display": "Severe",
                "code": "24484000",
                "system": "http://snomed.info/sct"
              },
              {
                "display": "Significant Problem/High Priority",
                "code": "1",
                "system": "http://www.e-mis.com/emisopen/MedicalRecord/Problem/Significance"
              }
            ]
          },
          "code": {
            "text": "Chronic kidney disease stage 2",
            "coding": [
              {
                "display": "Chronic kidney disease stage 2",
                "code": "1Z11.00",
                "system": "http://read.info/readv2"
              },
              {
                "display": "Chronic kidney disease stage 2",
                "code": "431856006",
                "system": "http://snomed.info/sct"
              },
              {
                "display": "Active Problem/Actual Problem",
                "code": "1",
                "system": "http://www.e-mis.com/emisopen/MedicalRecord/Problem/ProblemStatus"
              }
            ]
          },
          "extension": [
            {
              "valueBoolean": true,
              "url": "http://fhir.blackpear.com/activeProblem"
            }
          ],
          "id": "5002070",
          "resourceType": "Condition"
        },
        "id": "5002070"
      },
      {
        "content": {
          "subject": {
            "reference": "Patient/500207"
          },
          "asserter": {
            "reference": "Practitioner/2395"
          },
          "severity": {
            "coding": [
              {
                "display": "Severe",
                "code": "24484000",
                "system": "http://snomed.info/sct"
              },
              {
                "display": "Significant Problem/High Priority",
                "code": "1",
                "system": "http://www.e-mis.com/emisopen/MedicalRecord/Problem/Significance"
              }
            ]
          },
          "code": {
            "text": "Heart failure",
            "coding": [
              {
                "display": "Heart failure",
                "code": "G58..00",
                "system": "http://read.info/readv2"
              },
              {
                "display": "Heart failure",
                "code": "84114007",
                "system": "http://snomed.info/sct"
              },
              {
                "display": "Active Problem/Actual Problem",
                "code": "1",
                "system": "http://www.e-mis.com/emisopen/MedicalRecord/Problem/ProblemStatus"
              }
            ]
          },
          "dateAsserted": "2019-03-10",
          "extension": [
            {
              "valueBoolean": true,
              "url": "http://fhir.blackpear.com/activeProblem"
            }
          ],
          "id": "500207103",
          "resourceType": "Condition"
        },
        "id": "500207103"
      },
      {
        "content": {
          "subject": {
            "reference": "Patient/500207"
          },
          "asserter": {
            "reference": "Practitioner/2395"
          },
          "severity": {
            "coding": [
              {
                "display": "Severe",
                "code": "24484000",
                "system": "http://snomed.info/sct"
              },
              {
                "display": "Significant Problem/High Priority",
                "code": "1",
                "system": "http://www.e-mis.com/emisopen/MedicalRecord/Problem/Significance"
              }
            ]
          },
          "code": {
            "text": "[D] Dementia",
            "coding": [
              {
                "display": "[D] Dementia",
                "code": "EMISNQDD2",
                "system": "http://read.info/readv2"
              },
              {
                "display": "[D] Dementia",
                "code": "914941000006108",
                "system": "http://snomed.info/sct"
              },
              {
                "display": "Active Problem/Actual Problem",
                "code": "1",
                "system": "http://www.e-mis.com/emisopen/MedicalRecord/Problem/ProblemStatus"
              }
            ]
          },
          "dateAsserted": "2019-01-10",
          "extension": [
            {
              "valueBoolean": true,
              "url": "http://fhir.blackpear.com/activeProblem"
            }
          ],
          "id": "50020786",
          "resourceType": "Condition"
        },
        "id": "50020786"
      },
      {
        "content": {
          "subject": {
            "reference": "Patient/500207"
          },
          "asserter": {
            "reference": "Practitioner/2395"
          },
          "severity": {
            "coding": [
              {
                "display": "Severe",
                "code": "24484000",
                "system": "http://snomed.info/sct"
              },
              {
                "display": "Significant Problem/High Priority",
                "code": "1",
                "system": "http://www.e-mis.com/emisopen/MedicalRecord/Problem/Significance"
              }
            ]
          },
          "code": {
            "text": "Chronic obstructive pulmonary disease",
            "coding": [
              {
                "display": "Chronic obstructive pulmonary disease",
                "code": "H3...00",
                "system": "http://read.info/readv2"
              },
              {
                "display": "Chronic obstructive pulmonary disease",
                "code": "13645005",
                "system": "http://snomed.info/sct"
              },
              {
                "display": "Active Problem/Actual Problem",
                "code": "1",
                "system": "http://www.e-mis.com/emisopen/MedicalRecord/Problem/ProblemStatus"
              }
            ]
          },
          "dateAsserted": "2018-11-25",
          "extension": [
            {
              "valueBoolean": true,
              "url": "http://fhir.blackpear.com/activeProblem"
            }
          ],
          "id": "50020772",
          "resourceType": "Condition"
        },
        "id": "50020772"
      },
      {
        "content": {
          "subject": {
            "reference": "Patient/500207"
          },
          "asserter": {
            "reference": "Practitioner/2395"
          },
          "severity": {
            "coding": [
              {
                "display": "Severe",
                "code": "24484000",
                "system": "http://snomed.info/sct"
              },
              {
                "display": "Significant Problem/High Priority",
                "code": "1",
                "system": "http://www.e-mis.com/emisopen/MedicalRecord/Problem/Significance"
              }
            ]
          },
          "code": {
            "text": "Type 2 diabetes mellitus",
            "coding": [
              {
                "display": "Type 2 diabetes mellitus",
                "code": "C10F.00",
                "system": "http://read.info/readv2"
              },
              {
                "display": "Type 2 diabetes mellitus",
                "code": "44054006",
                "system": "http://snomed.info/sct"
              },
              {
                "display": "Active Problem/Actual Problem",
                "code": "1",
                "system": "http://www.e-mis.com/emisopen/MedicalRecord/Problem/ProblemStatus"
              }
            ]
          },
          "dateAsserted": "2017-03-01",
          "extension": [
            {
              "valueBoolean": true,
              "url": "http://fhir.blackpear.com/activeProblem"
            }
          ],
          "id": "5002071",
          "resourceType": "Condition"
        },
        "id": "5002071"
      },
      {
        "content": {
          "subject": {
            "reference": "Patient/500207"
          },
          "asserter": {
            "reference": "Practitioner/2395"
          },
          "severity": {
            "coding": [
              {
                "display": "Severe",
                "code": "24484000",
                "system": "http://snomed.info/sct"
              },
              {
                "display": "Significant Problem/High Priority",
                "code": "1",
                "system": "http://www.e-mis.com/emisopen/MedicalRecord/Problem/Significance"
              }
            ]
          },
          "code": {
            "text": "Amputation below knee",
            "coding": [
              {
                "display": "Amputation below-knee",
                "code": "7L06400",
                "system": "http://read.info/readv2"
              },
              {
                "display": "Amputation below-knee",
                "code": "88312006",
                "system": "http://snomed.info/sct"
              },
              {
                "display": "Active Problem/Actual Problem",
                "code": "1",
                "system": "http://www.e-mis.com/emisopen/MedicalRecord/Problem/ProblemStatus"
              }
            ]
          },
          "dateAsserted": "2010-01-01",
          "extension": [
            {
              "valueBoolean": true,
              "url": "http://fhir.blackpear.com/activeProblem"
            }
          ],
          "id": "50020729",
          "resourceType": "Condition"
        },
        "id": "50020729"
      },
      {
        "content": {
          "subject": {
            "reference": "Patient/500207"
          },
          "asserter": {
            "reference": "Practitioner/2395"
          },
          "severity": {
            "coding": [
              {
                "display": "Severe",
                "code": "24484000",
                "system": "http://snomed.info/sct"
              },
              {
                "display": "Significant Problem/High Priority",
                "code": "1",
                "system": "http://www.e-mis.com/emisopen/MedicalRecord/Problem/Significance"
              }
            ]
          },
          "code": {
            "text": "MI - acute myocardial infarction",
            "coding": [
              {
                "display": "MI - acute myocardial infarction",
                "code": "G30..15",
                "system": "http://read.info/readv2"
              },
              {
                "display": "MI - acute myocardial infarction",
                "code": "57054005",
                "system": "http://snomed.info/sct"
              },
              {
                "display": "Active Problem/Actual Problem",
                "code": "1",
                "system": "http://www.e-mis.com/emisopen/MedicalRecord/Problem/ProblemStatus"
              }
            ]
          },
          "dateAsserted": "2004-01-01",
          "extension": [
            {
              "valueBoolean": true,
              "url": "http://fhir.blackpear.com/activeProblem"
            }
          ],
          "id": "50020727",
          "resourceType": "Condition"
        },
        "id": "50020727"
      },
      {
        "content": {
          "subject": {
            "reference": "Patient/500207"
          },
          "asserter": {
            "reference": "Practitioner/2395"
          },
          "severity": {
            "coding": [
              {
                "display": "Severe",
                "code": "24484000",
                "system": "http://snomed.info/sct"
              },
              {
                "display": "Significant Problem/High Priority",
                "code": "1",
                "system": "http://www.e-mis.com/emisopen/MedicalRecord/Problem/Significance"
              }
            ]
          },
          "code": {
            "text": "Carcinoma in situ of colon",
            "coding": [
              {
                "display": "Carcinoma in situ of colon",
                "code": "B803.00",
                "system": "http://read.info/readv2"
              },
              {
                "display": "Carcinoma in situ of colon",
                "code": "92568009",
                "system": "http://snomed.info/sct"
              },
              {
                "display": "Active Problem/Actual Problem",
                "code": "1",
                "system": "http://www.e-mis.com/emisopen/MedicalRecord/Problem/ProblemStatus"
              }
            ]
          },
          "dateAsserted": "1993-01-01",
          "extension": [
            {
              "valueBoolean": true,
              "url": "http://fhir.blackpear.com/activeProblem"
            }
          ],
          "id": "50020724",
          "resourceType": "Condition"
        },
        "id": "50020724"
      },
      {
        "content": {
          "encounter": {
            "reference": "Encounter/50020736"
          },
          "dispense": {
            "quantity": {
              "units": "tablet",
              "value": 20
            },
            "numberOfRepeatsAllowed": 10
          },
          "dosageInstruction": [
            {
              "text": "One To Be Taken Each Day"
            }
          ],
          "medication": {
            "reference": "Medication/med-50020739",
            "display": "Sitagliptin 50mg tablets"
          },
          "prescriber": {
            "reference": "Practitioner/2395"
          },
          "patient": {
            "reference": "Patient/500207"
          },
          "status": "active",
          "dateWritten": "2018-04-21",
          "extension": [
            {
              "valueString": "RepeatMaster",
              "url": "http://fhir.blackpear.com/prescriptionType"
            },
            {
              "valueString": "2019-10-09",
              "url": "http://fhir.blackpear.com/lastIssueDate"
            }
          ],
          "id": "50020739",
          "resourceType": "MedicationPrescription"
        },
        "id": "50020739"
      },
      {
        "content": {
          "code": {
            "text": "Sitagliptin 50mg tablets",
            "coding": [
              {
                "display": "Sitagliptin 50mg tablets",
                "code": "424513004",
                "system": "http://snomed.info/sct"
              }
            ]
          },
          "id": "med-50020739",
          "resourceType": "Medication"
        },
        "id": "med-50020739"
      },
      {
        "content": {
          "description": "Main EPaCCS care plan",
          "status": "unknown",
          "patient": {
            "reference": "5d9da19d1d950e07f4d456d9"
          },
          "concern": {
            "reference": "Condition/PRIMARY_DIAGNOSIS"
          },
          "modified": "2020-11-03T11:10:50.656Z",
          "period": {
            "start": "2020-03-09"
          },
          "extension": [
            {
              "valueDateTime": "2020-03-31",
              "url": "http://fhir.blackpear.com/datetypes#reviewdate"
            }
          ],
          "id": "EPACCS_CAREPLAN",
          "resourceType": "CarePlan"
        },
        "id": "EPACCS_CAREPLAN"
      },
      {
        "content": {
          "valueCodeableConcept": {
            "coding": [
              {
                "display": "Patient has been informed EPaCCS will be shared",
                "code": "PATIENT_INFORMED_EPACCS_SHARING_BASIS",
                "system": "http://fhir.blackpear.com/bpc"
              }
            ]
          },
          "reliability": "ok",
          "name": {
            "coding": [
              {
                "display": "Informing the patient that EPaCCS will be shared, viewed and amended",
                "code": "INFORM_PATIENT_STATUS",
                "system": "http://fhir.blackpear.com/bpc"
              }
            ]
          },
          "status": "final",
          "id": "INFORM_PATIENT_STATUS",
          "resourceType": "Observation"
        },
        "id": "INFORM_PATIENT_STATUS"
      },
      {
        "content": {
          "valueBoolean": false,
          "reliability": "ok",
          "name": {
            "coding": [
              {
                "display": "Other impairment",
                "code": "OTHER_IMPAIRMENT",
                "system": "http://fhir.blackpear.com/bpc"
              }
            ]
          },
          "status": "final",
          "id": "OTHER_IMPAIRMENT",
          "resourceType": "Observation"
        },
        "id": "OTHER_IMPAIRMENT"
      },
      {
        "content": {
          "valueCodeableConcept": {
            "coding": [
              {
                "display": "Interpreter needed",
                "code": "9NU0.00",
                "system": "http://read.info/readv2"
              },
              {
                "extension": [
                  {
                    "valueId": "460112014",
                    "url": "http://hl7.org/fhir/StructureDefinition/coding-sctdescid"
                  }
                ],
                "display": "Interpreter needed",
                "code": "315594003",
                "system": "http://snomed.info/sct"
              },
              {
                "display": "Interpreter needed",
                "code": "XaI8X",
                "system": "http://read.info/ctv3"
              },
              {
                "display": "Interpreter needed",
                "code": "INTERPRETER_NEEDED",
                "system": "http://fhir.blackpear.com/bpc"
              }
            ]
          },
          "reliability": "ok",
          "name": {
            "coding": [
              {
                "display": "Is interpreter needed",
                "code": "IS_INTERPRETER_NEEDED",
                "system": "http://fhir.blackpear.com/bpc"
              }
            ]
          },
          "status": "final",
          "id": "INTERPRETER_NEEDED",
          "resourceType": "Observation"
        },
        "id": "INTERPRETER_NEEDED"
      },
      {
        "content": {
          "valueString": "test",
          "reliability": "ok",
          "name": {
            "coding": [
              {
                "display": "Main spoken language",
                "code": "13l..00",
                "system": "http://read.info/readv2"
              },
              {
                "extension": [
                  {
                    "valueId": "2672528018",
                    "url": "http://hl7.org/fhir/StructureDefinition/coding-sctdescid"
                  }
                ],
                "display": "Main spoken language",
                "code": "370157003",
                "system": "http://snomed.info/sct"
              },
              {
                "display": "Main spoken language",
                "code": "Ua0HJ",
                "system": "http://read.info/ctv3"
              }
            ]
          },
          "status": "final",
          "id": "LANGUAGE_SPOKEN",
          "resourceType": "Observation"
        },
        "id": "LANGUAGE_SPOKEN"
      },
      {
        "content": {
          "valueBoolean": false,
          "reliability": "ok",
          "name": {
            "coding": [
              {
                "display": "End of Life Care - Is the main informal carer aware of the diagnosis?",
                "code": "EPACCS_MAIN_INFORMAL_CARER_AWARE_OF_DIAGNOSIS",
                "system": "http://fhir.blackpear.com/bpc"
              }
            ]
          },
          "status": "final",
          "id": "MAIN_INFORMAL_CARER_AWARE",
          "resourceType": "Observation"
        },
        "id": "MAIN_INFORMAL_CARER_AWARE"
      },
      {
        "content": {
          "valueBoolean": false,
          "reliability": "ok",
          "name": {
            "coding": [
              {
                "display": "Issue of palliative care anticipatory medication box",
                "code": "EPACCS_JUST_IN_CASE_BOX_ISSUED",
                "system": "http://fhir.blackpear.com/bpc"
              }
            ]
          },
          "status": "final",
          "id": "JUST_IN_CASE_BOX_ISSUED",
          "resourceType": "Observation"
        },
        "id": "JUST_IN_CASE_BOX_ISSUED"
      },
      {
        "content": {
          "valueBoolean": false,
          "reliability": "ok",
          "name": {
            "coding": [
              {
                "display": "McKinley Syringe Pump Chart Completed",
                "code": "MCKINLEY_SYRINGE_PUMP_CHART_COMPLETED",
                "system": "http://fhir.blackpear.com/bpc"
              }
            ]
          },
          "status": "final",
          "id": "MCKINLEY_SYRINGE_PUMP_CHART_COMPLETED",
          "resourceType": "Observation"
        },
        "id": "MCKINLEY_SYRINGE_PUMP_CHART_COMPLETED"
      },
      {
        "content": {
          "valueCodeableConcept": {
            "coding": [
              {
                "display": "For attempted cardiopulmonary resuscitation",
                "code": "1R00.00",
                "system": "http://read.info/readv2"
              },
              {
                "extension": [
                  {
                    "valueId": "2212981000000117",
                    "url": "http://hl7.org/fhir/StructureDefinition/coding-sctdescid"
                  }
                ],
                "display": "For attempted cardiopulmonary resuscitation",
                "code": "450475007",
                "system": "http://snomed.info/sct"
              },
              {
                "display": "For attempted cardiopulmonary resuscitation",
                "code": "XaZVX",
                "system": "http://read.info/ctv3"
              }
            ]
          },
          "reliability": "ok",
          "name": {
            "coding": [
              {
                "display": "End of life care plan DNACPR status",
                "code": "EPACCS_DNACPR_STATUS",
                "system": "http://fhir.blackpear.com/bpc"
              }
            ]
          },
          "status": "final",
          "id": "DNACPR",
          "resourceType": "Observation"
        },
        "id": "DNACPR"
      },
      {
        "content": {
          "valueCodeableConcept": {
            "coding": [
              {
                "display": "ACP offered to patient",
                "code": "ACP_PROGRESS_OFFERED_TO_PATIENT",
                "system": "http://fhir.blackpear.com/bpc"
              }
            ]
          },
          "reliability": "ok",
          "name": {
            "coding": [
              {
                "display": "Advance care plan progress",
                "code": "EPACCS_ACP_PROGRESS",
                "system": "http://fhir.blackpear.com/bpc"
              }
            ]
          },
          "status": "final",
          "id": "EPACCS_ACP_PROGRESS",
          "resourceType": "Observation"
        },
        "id": "EPACCS_ACP_PROGRESS"
      },
      {
        "content": {
          "valuePeriod": {
            "start": "2020-11-03"
          },
          "reliability": "ok",
          "name": {
            "coding": [
              {
                "display": "Advanced care plan - last discussion date",
                "code": "EPACCS_ACP_DISCUSSION_DATE",
                "system": "http://fhir.blackpear.com/bpc"
              }
            ]
          },
          "status": "final",
          "id": "EPACCS_ACP_DISCUSSION_DATE",
          "resourceType": "Observation"
        },
        "id": "EPACCS_ACP_DISCUSSION_DATE"
      },
      {
        "content": {
          "valueBoolean": true,
          "reliability": "ok",
          "name": {
            "coding": [
              {
                "display": "Issues about provision of care - Religious",
                "code": "CAREPLAN_OTHER_ISSUES_RELIGIOUS",
                "system": "http://fhir.blackpear.com/bpc"
              }
            ]
          },
          "status": "final",
          "id": "CAREPLAN_OTHER_ISSUES_RELIGIOUS",
          "resourceType": "Observation"
        },
        "id": "CAREPLAN_OTHER_ISSUES_RELIGIOUS"
      },
      {
        "content": {
          "valueBoolean": true,
          "reliability": "ok",
          "name": {
            "coding": [
              {
                "display": "Issues about provision of care - Spiritual",
                "code": "CAREPLAN_OTHER_ISSUES_SPIRITUAL",
                "system": "http://fhir.blackpear.com/bpc"
              }
            ]
          },
          "status": "final",
          "id": "CAREPLAN_OTHER_ISSUES_SPIRITUAL",
          "resourceType": "Observation"
        },
        "id": "CAREPLAN_OTHER_ISSUES_SPIRITUAL"
      },
      {
        "content": {
          "valueBoolean": true,
          "reliability": "ok",
          "name": {
            "coding": [
              {
                "display": "Issues about provision of care - Cultural",
                "code": "CAREPLAN_OTHER_ISSUES_CULTURAL",
                "system": "http://fhir.blackpear.com/bpc"
              }
            ]
          },
          "status": "final",
          "id": "CAREPLAN_OTHER_ISSUES_CULTURAL",
          "resourceType": "Observation"
        },
        "id": "CAREPLAN_OTHER_ISSUES_CULTURAL"
      },
      {
        "content": {
          "valueBoolean": true,
          "reliability": "ok",
          "name": {
            "coding": [
              {
                "display": "Issues about provision of care - Organ donation",
                "code": "CAREPLAN_OTHER_ISSUES_ORGAN_DONATION",
                "system": "http://fhir.blackpear.com/bpc"
              }
            ]
          },
          "status": "final",
          "id": "CAREPLAN_OTHER_ISSUES_ORGAN_DONATION",
          "resourceType": "Observation"
        },
        "id": "CAREPLAN_OTHER_ISSUES_ORGAN_DONATION"
      },
      {
        "content": {
          "valueBoolean": false,
          "reliability": "ok",
          "name": {
            "coding": [
              {
                "display": "Issues about provision of care - Other social issues",
                "code": "CAREPLAN_OTHER_ISSUES_OTHER_SOCIAL",
                "system": "http://fhir.blackpear.com/bpc"
              }
            ]
          },
          "status": "final",
          "id": "CAREPLAN_OTHER_ISSUES_OTHER_SOCIAL",
          "resourceType": "Observation"
        },
        "id": "CAREPLAN_OTHER_ISSUES_OTHER_SOCIAL"
      },
      {
        "content": {
          "valueBoolean": false,
          "reliability": "ok",
          "name": {
            "coding": [
              {
                "display": "Other instructions from the patient about their care",
                "code": "CAREPLAN_OTHER_ISSUES_OTHER_INSTRUCTIONS",
                "system": "http://fhir.blackpear.com/bpc"
              }
            ]
          },
          "status": "final",
          "id": "CAREPLAN_OTHER_ISSUES_OTHER_INSTRUCTIONS",
          "resourceType": "Observation"
        },
        "id": "CAREPLAN_OTHER_ISSUES_OTHER_INSTRUCTIONS"
      },
      {
        "content": {
          "valueBoolean": false,
          "reliability": "ok",
          "name": {
            "coding": [
              {
                "display": "Is main carer aware of prognosis",
                "code": "EPACCS_MAIN_INFORMAL_CARER_AWARE_OF_PROGNOSIS",
                "system": "http://fhir.blackpear.com/bpc"
              }
            ]
          },
          "status": "final",
          "id": "EPACCS_MAIN_INFORMAL_CARER_AWARE_OF_PROGNOSIS",
          "resourceType": "Observation"
        },
        "id": "EPACCS_MAIN_INFORMAL_CARER_AWARE_OF_PROGNOSIS"
      },
      {
        "content": {
          "valueBoolean": true,
          "reliability": "ok",
          "name": {
            "coding": [
              {
                "display": "Care plan documented",
                "code": "CAREPLAN_DOCUMENTED",
                "system": "http://fhir.blackpear.com/bpc"
              }
            ]
          },
          "status": "final",
          "id": "CAREPLAN_DOCUMENTED",
          "resourceType": "Observation"
        },
        "id": "CAREPLAN_DOCUMENTED"
      },
      {
        "content": {
          "valuePeriod": {
            "start": "2020-04-07"
          },
          "reliability": "ok",
          "name": {
            "coding": [
              {
                "display": "GP system repeats prescription data date",
                "code": "REPEATS_DATE",
                "system": "http://fhir.blackpear.com/bpc"
              }
            ]
          },
          "status": "final",
          "id": "REPEATS_DATE",
          "resourceType": "Observation"
        },
        "id": "REPEATS_DATE"
      },
      {
        "content": {
          "valueCodeableConcept": {
            "coding": [
              {
                "display": "On end of life care register",
                "code": "9Ng7.00",
                "system": "http://read.info/readv2"
              },
              {
                "extension": [
                  {
                    "valueId": "1175491000000110",
                    "url": "http://hl7.org/fhir/StructureDefinition/coding-sctdescid"
                  }
                ],
                "display": "On end of life care register",
                "code": "526631000000108",
                "system": "http://snomed.info/sct"
              },
              {
                "display": "On end of life care register",
                "code": "XaRFG",
                "system": "http://read.info/ctv3"
              }
            ]
          },
          "reliability": "ok",
          "name": {
            "coding": [
              {
                "display": "On end of life care register",
                "code": "ON_END_OF_LIFE_CARE_REGISTER",
                "system": "http://fhir.blackpear.com/bpc"
              },
              {
                "display": "On end of life care register",
                "code": "9Ng7.00",
                "system": "http://read.info/readv2"
              },
              {
                "display": "On end of life care register",
                "code": "526631000000108",
                "system": "http://snomed.info/sct"
              },
              {
                "display": "On end of life care register",
                "code": "XaRFG",
                "system": "http://read.info/ctv3"
              }
            ]
          },
          "status": "final",
          "id": "ON_END_OF_LIFE_CARE_REGISTER",
          "resourceType": "Observation"
        },
        "id": "ON_END_OF_LIFE_CARE_REGISTER"
      },
      {
        "content": {
          "valueCodeableConcept": {
            "coding": [
              {
                "display": "Visual impairment",
                "code": "F49D.00",
                "system": "http://read.info/readv2"
              },
              {
                "extension": [
                  {
                    "valueId": "1777162017",
                    "url": "http://hl7.org/fhir/StructureDefinition/coding-sctdescid"
                  }
                ],
                "display": "Visual impairment",
                "code": "397540003",
                "system": "http://snomed.info/sct"
              },
              {
                "display": "Visual impairment",
                "code": "XE16L",
                "system": "http://read.info/ctv3"
              }
            ]
          },
          "reliability": "ok",
          "name": {
            "coding": [
              {
                "display": "Visual impairment",
                "code": "VISUAL_IMPAIRMENT",
                "system": "http://fhir.blackpear.com/bpc"
              },
              {
                "display": "Visual impairment",
                "code": "F49D.00",
                "system": "http://read.info/readv2"
              },
              {
                "extension": [
                  {
                    "valueId": "1777162017",
                    "url": "http://hl7.org/fhir/StructureDefinition/coding-sctdescid"
                  }
                ],
                "display": "Visual impairment",
                "code": "397540003",
                "system": "http://snomed.info/sct"
              },
              {
                "display": "Impaired vision",
                "code": "XE16L",
                "system": "http://read.info/ctv3"
              }
            ]
          },
          "status": "final",
          "id": "VISUAL_IMPAIRMENT",
          "resourceType": "Observation"
        },
        "id": "VISUAL_IMPAIRMENT"
      },
      {
        "content": {
          "valueCodeableConcept": {
            "coding": [
              {
                "display": "Cognitive impairment",
                "code": "28E3.00",
                "system": "http://read.info/readv2"
              },
              {
                "extension": [
                  {
                    "valueId": "1480926019",
                    "url": "http://hl7.org/fhir/StructureDefinition/coding-sctdescid"
                  }
                ],
                "display": "Impaired cognition",
                "code": "386806002",
                "system": "http://snomed.info/sct"
              },
              {
                "display": "Cognitive impairment",
                "code": "Ua189",
                "system": "http://read.info/ctv3"
              }
            ]
          },
          "reliability": "ok",
          "name": {
            "coding": [
              {
                "display": "Cognitive impairment",
                "code": "COGNITIVE_IMPAIRMENT",
                "system": "http://fhir.blackpear.com/bpc"
              },
              {
                "display": "Cognitive impairment",
                "code": "28E3.00",
                "system": "http://read.info/readv2"
              },
              {
                "extension": [
                  {
                    "valueId": "1480926019",
                    "url": "http://hl7.org/fhir/StructureDefinition/coding-sctdescid"
                  }
                ],
                "display": "Impaired cognition",
                "code": "386806002",
                "system": "http://snomed.info/sct"
              },
              {
                "display": "Cognitive impairment",
                "code": "Ua189",
                "system": "http://read.info/ctv3"
              }
            ]
          },
          "status": "final",
          "id": "COGNITIVE_IMPAIRMENT",
          "resourceType": "Observation"
        },
        "id": "COGNITIVE_IMPAIRMENT"
      },
      {
        "content": {
          "valueCodeableConcept": {
            "coding": [
              {
                "display": "Impaired ability to recognise safety risks",
                "code": "13i2.00",
                "system": "http://read.info/readv2"
              },
              {
                "extension": [
                  {
                    "valueId": "2349201000000110",
                    "url": "http://hl7.org/fhir/StructureDefinition/coding-sctdescid"
                  }
                ],
                "display": "Impaired ability to recognise safety risks",
                "code": "914271000000103",
                "system": "http://snomed.info/sct"
              },
              {
                "display": "Impaired ability to recognise safety risks",
                "code": "XabGs",
                "system": "http://read.info/ctv3"
              },
              {
                "display": "Impaired ability to recognise safety risks",
                "code": "IMPAIRED_ABILITY_TO_RECOGNISE_SAFETY_RISKS",
                "system": "http://fhir.blackpear.com/bpc"
              }
            ]
          },
          "comments": ".",
          "reliability": "ok",
          "name": {
            "coding": [
              {
                "display": "Impaired ability to recognise safety risks",
                "code": "IMPAIRED_ABLITY_TO_RECOGNISE_SAFETY_RISKS",
                "system": "http://fhir.blackpear.com/bpc"
              },
              {
                "display": "Impaired ability to recognise safety risks",
                "code": "13i2.00",
                "system": "http://read.info/readv2"
              },
              {
                "extension": [
                  {
                    "valueId": "2349201000000110",
                    "url": "http://hl7.org/fhir/StructureDefinition/coding-sctdescid"
                  }
                ],
                "display": "Impaired ability to recognise safety risks",
                "code": "914271000000103",
                "system": "http://snomed.info/sct"
              },
              {
                "display": "Impaired ability to recognise safety risks",
                "code": "XabGs",
                "system": "http://read.info/ctv3"
              }
            ]
          },
          "status": "final",
          "id": "SAFETY_IMPAIRMENT",
          "resourceType": "Observation"
        },
        "id": "SAFETY_IMPAIRMENT"
      },
      {
        "content": {
          "valueCodeableConcept": {
            "coding": [
              {
                "display": "Hearing loss",
                "code": "F59..00",
                "system": "http://read.info/readv2"
              },
              {
                "extension": [
                  {
                    "valueId": "25788011",
                    "url": "http://hl7.org/fhir/StructureDefinition/coding-sctdescid"
                  }
                ],
                "display": "Hearing loss",
                "code": "15188001",
                "system": "http://snomed.info/sct"
              },
              {
                "display": "Hearing loss",
                "code": "XE0s9",
                "system": "http://read.info/ctv3"
              }
            ]
          },
          "reliability": "ok",
          "name": {
            "coding": [
              {
                "display": "Hearing impairment",
                "code": "HEARING_IMPAIRMENT",
                "system": "http://fhir.blackpear.com/bpc"
              },
              {
                "display": "Hearing loss",
                "code": "F59..00",
                "system": "http://read.info/readv2"
              },
              {
                "extension": [
                  {
                    "valueId": "25788011",
                    "url": "http://hl7.org/fhir/StructureDefinition/coding-sctdescid"
                  }
                ],
                "display": "Hearing loss",
                "code": "15188001",
                "system": "http://snomed.info/sct"
              },
              {
                "display": "Hearing loss",
                "code": "XE0s9",
                "system": "http://read.info/ctv3"
              }
            ]
          },
          "status": "final",
          "id": "HEARING_IMPAIRMENT",
          "resourceType": "Observation"
        },
        "id": "HEARING_IMPAIRMENT"
      },
      {
        "content": {
          "valueCodeableConcept": {
            "coding": [
              {
                "display": "Difficulty communicating",
                "code": "13oB.00",
                "system": "http://read.info/readv2"
              },
              {
                "extension": [
                  {
                    "valueId": "428261017",
                    "url": "http://hl7.org/fhir/StructureDefinition/coding-sctdescid"
                  }
                ],
                "display": "Difficulty communicating",
                "code": "288579009",
                "system": "http://snomed.info/sct"
              },
              {
                "display": "Difficulty communicating",
                "code": "Xa4Cq",
                "system": "http://read.info/ctv3"
              }
            ]
          },
          "reliability": "ok",
          "name": {
            "coding": [
              {
                "display": "Difficulty communicating",
                "code": "DIFFICULTY_COMMUNICATING",
                "system": "http://fhir.blackpear.com/bpc"
              }
            ]
          },
          "status": "final",
          "id": "DIFFICULTY_COMMUNICATING",
          "resourceType": "Observation"
        },
        "id": "DIFFICULTY_COMMUNICATING"
      },
      {
        "content": {
          "valueCodeableConcept": {
            "coding": [
              {
                "display": "Unable to summon help in an emergency",
                "code": "1PA0.00",
                "system": "http://read.info/readv2"
              },
              {
                "extension": [
                  {
                    "valueId": "599411000000116",
                    "url": "http://hl7.org/fhir/StructureDefinition/coding-sctdescid"
                  }
                ],
                "display": "Unable to summon help in emergency",
                "code": "325541000000106",
                "system": "http://snomed.info/sct"
              },
              {
                "display": "Unable to summon help in an emergency",
                "code": "Xaato",
                "system": "http://read.info/ctv3"
              },
              {
                "display": "Unable to summon help in emergency",
                "code": "UNABLE_TO_SUMMON_HELP_EMERGENCY",
                "system": "http://fhir.blackpear.com/bpc"
              }
            ]
          },
          "reliability": "ok",
          "name": {
            "coding": [
              {
                "display": "Unable to summon help in an emergency",
                "code": "UNABLE_TO_SUMMON_HELP",
                "system": "http://fhir.blackpear.com/bpc"
              },
              {
                "display": "Unable to summon help in an emergency",
                "code": "1PA0.00",
                "system": "http://read.info/readv2"
              },
              {
                "extension": [
                  {
                    "valueId": "599411000000116",
                    "url": "http://hl7.org/fhir/StructureDefinition/coding-sctdescid"
                  }
                ],
                "display": "Unable to summon help in emergency",
                "code": "325541000000106",
                "system": "http://snomed.info/sct"
              },
              {
                "display": "Unable to summon help in an emergency",
                "code": "Xaato",
                "system": "http://read.info/ctv3"
              }
            ]
          },
          "status": "final",
          "id": "SUMMON_HELP_IMPAIRMENT",
          "resourceType": "Observation"
        },
        "id": "SUMMON_HELP_IMPAIRMENT"
      },
      {
        "content": {
          "valueBoolean": false,
          "reliability": "ok",
          "name": {
            "coding": [
              {
                "display": "Mental capacity decision",
                "code": "MENTAL_CAPACITY_DECISION",
                "system": "http://fhir.blackpear.com/bpc"
              }
            ]
          },
          "status": "final",
          "id": "MENTAL_CAPACITY_DECISION",
          "resourceType": "Observation"
        },
        "id": "MENTAL_CAPACITY_DECISION"
      },
      {
        "content": {
          "name": {
            "text": "Mr CSIS CSIS"
          },
          "id": "USUAL_GP",
          "resourceType": "Practitioner"
        },
        "id": "USUAL_GP"
      },
      {
        "content": {
          "organization": {
            "reference": "Organization/AUTHOR_ORGANISATION"
          },
          "name": {
            "text": "Steven Reay"
          },
          "id": "AUTHOR",
          "resourceType": "Practitioner"
        },
        "id": "AUTHOR"
      },
      {
        "content": {
          "organization": {
            "reference": "Organization/LAST_AUTHOR_ORGANISATION"
          },
          "name": {
            "text": "Steven Reay"
          },
          "id": "LAST_AUTHOR",
          "resourceType": "Practitioner"
        },
        "id": "LAST_AUTHOR"
      },
      {
        "content": {
          "subject": {
            "reference": "Patient/5d9da19d1d950e07f4d456d9"
          },
          "code": {
            "coding": [
              {
                "display": "Carcinoma in situ of colon",
                "code": "92568009",
                "system": "http://snomed.info/sct"
              }
            ]
          },
          "id": "PRIMARY_DIAGNOSIS",
          "resourceType": "Condition"
        },
        "id": "PRIMARY_DIAGNOSIS"
      },
      {
        "content": {
          "subject": {
            "reference": "Patient/5d9da19d1d950e07f4d456d9"
          },
          "code": {
            "coding": [
              {
                "display": "Other relevant End of Life Care clinical issues",
                "code": "EPACCS_OTHER_RELEVANT_CLINICAL_ISSUES",
                "system": "http://fhir.blackpear.com/bpc"
              }
            ]
          },
          "id": "EPACCS_OTHER_RELEVANT_CLINICAL_ISSUES",
          "resourceType": "Condition"
        },
        "id": "EPACCS_OTHER_RELEVANT_CLINICAL_ISSUES"
      },
      {
        "content": {
          "name": "Test Organisation",
          "id": "AUTHOR_ORGANISATION",
          "resourceType": "Organization"
        },
        "id": "AUTHOR_ORGANISATION"
      },
      {
        "content": {
          "name": "Test Organisation",
          "id": "LAST_AUTHOR_ORGANISATION",
          "resourceType": "Organization"
        },
        "id": "LAST_AUTHOR_ORGANISATION"
      },
      {
        "content": {
          "type": {
            "text": "STEP form",
            "coding": [
              {
                "extension": [
                  {
                    "valueId": "3517255016",
                    "url": "http://hl7.org/fhir/StructureDefinition/coding-sctdescid"
                  }
                ],
                "display": "Advance care plan",
                "code": "736366004",
                "system": "http://snomed.info/sct"
              }
            ]
          },
          "status": "current",
          "size": 24409,
          "mimeType": "application/pdf",
          "location": "https://endor.blackpear.com/pyruscloud/v1/esp/fhir/Binary/5e7e00c0776a3307b2939124",
          "created": "2020-01-08T16:03:41.901Z",
          "indexed": "2020-03-27T13:35:59.651Z",
          "author": [
            {
              "display": "Steve Reay"
            }
          ],
          "extension": [
            {
              "valueString": "ACP 16-01-2020 - Copy.pdf",
              "url": "http://fhir.blackpear.com/document_attachment_title"
            }
          ],
          "id": "ADVANCE_CARE_PLAN",
          "resourceType": "DocumentReference"
        },
        "id": "ADVANCE_CARE_PLAN"
      },
      {
        "content": {
          "type": {
            "text": "Advance Statement",
            "coding": [
              {
                "extension": [
                  {
                    "valueId": "2674131000000118",
                    "url": "http://hl7.org/fhir/StructureDefinition/coding-sctdescid"
                  }
                ],
                "display": "Advance statement",
                "code": "1064491000000109",
                "system": "http://snomed.info/sct"
              }
            ]
          },
          "status": "current",
          "size": 24409,
          "mimeType": "application/pdf",
          "location": "https://endor.blackpear.com/pyruscloud/v1/esp/fhir/Binary/5e7e0148776a3307b293912e",
          "created": "2020-01-08T16:03:41.901Z",
          "indexed": "2020-03-27T13:36:04.290Z",
          "author": [
            {
              "display": "Steve Reay"
            }
          ],
          "extension": [
            {
              "valueString": "AS 16-01-2020 - Copy - Copy.pdf",
              "url": "http://fhir.blackpear.com/document_attachment_title"
            }
          ],
          "id": "ADVANCE_STATEMENT",
          "resourceType": "DocumentReference"
        },
        "id": "ADVANCE_STATEMENT"
      },
      {
        "content": {
          "type": {
            "text": "Lasting Power of Attorney",
            "coding": [
              {
                "display": "Lasting Power of Attorney",
                "code": "LPA_DOCUMENT",
                "system": "http://fhir.blackpear.com/bpc"
              }
            ]
          },
          "status": "current",
          "size": 24409,
          "mimeType": "application/pdf",
          "location": "https://endor.blackpear.com/pyruscloud/v1/esp/fhir/Binary/5e7e00c0776a3307b2939127",
          "created": "2020-01-08T16:08:28.278Z",
          "indexed": "2020-03-27T13:33:27.338Z",
          "author": [
            {
              "display": "Steve Reay"
            }
          ],
          "extension": [
            {
              "valueString": "LPA 10-01-2020.pdf",
              "url": "http://fhir.blackpear.com/document_attachment_title"
            }
          ],
          "id": "LPA_DOCUMENT",
          "resourceType": "DocumentReference"
        },
        "id": "LPA_DOCUMENT"
      },
      {
        "content": {
          "mode": "snapshot",
          "entry": [
            {
              "item": "Observation/OTHER_IMPAIRMENT"
            },
            {
              "item": "Observation/VISUAL_IMPAIRMENT"
            },
            {
              "item": "Observation/COGNITIVE_IMPAIRMENT"
            },
            {
              "item": "Observation/SAFETY_IMPAIRMENT"
            },
            {
              "item": "Observation/HEARING_IMPAIRMENT"
            },
            {
              "item": "Observation/DIFFICULTY_COMMUNICATING"
            },
            {
              "item": "Observation/SUMMON_HELP_IMPAIRMENT"
            }
          ],
          "code": {
            "coding": [
              {
                "display": "End of Life Care related disability",
                "code": "BPS_EPACCS_DISABILITY",
                "system": "http://fhir.blackpear.com/bpc"
              }
            ]
          },
          "id": "DISABILITIES",
          "resourceType": "List"
        },
        "id": "DISABILITIES"
      },
      {
        "content": {
          "mode": "snapshot",
          "entry": [
            {
              "item": "Condition/EPACCS_OTHER_RELEVANT_CLINICAL_ISSUES"
            }
          ],
          "code": {
            "coding": [
              {
                "display": "Other Relevant End of Life Care Diagnoses and Clinical Issues",
                "code": "BPS_EPACCS_EOL_DIAGNOSES",
                "system": "http://fhir.blackpear.com/bpc"
              }
            ]
          },
          "id": "EPACCS_OTHER_DIAGNOSES_LIST",
          "resourceType": "List"
        },
        "id": "EPACCS_OTHER_DIAGNOSES_LIST"
      },
      {
        "content": {
          "mode": "snapshot",
          "entry": [
            {
              "item": "Observation/MCKINLEY_SYRINGE_PUMP_CHART_COMPLETED"
            }
          ],
          "code": {
            "coding": [
              {
                "display": "Anticipatory medicines issued",
                "code": "BPS_EPACCS_ANTICIPATORY_MEDICINES",
                "system": "http://fhir.blackpear.com/bpc"
              }
            ]
          },
          "id": "EPACCS_ANTICIPATORY_MEDICINES",
          "resourceType": "List"
        },
        "id": "EPACCS_ANTICIPATORY_MEDICINES"
      },
      {
        "content": {
          "mode": "snapshot",
          "entry": [
            {
              "item": "Observation/CAREPLAN_OTHER_ISSUES_RELIGIOUS"
            },
            {
              "item": "Observation/CAREPLAN_OTHER_ISSUES_SPIRITUAL"
            },
            {
              "item": "Observation/CAREPLAN_OTHER_ISSUES_CULTURAL"
            },
            {
              "item": "Observation/CAREPLAN_OTHER_ISSUES_ORGAN_DONATION"
            },
            {
              "item": "Observation/CAREPLAN_OTHER_ISSUES_OTHER_SOCIAL"
            },
            {
              "item": "Observation/CAREPLAN_OTHER_ISSUES_OTHER_INSTRUCTIONS"
            }
          ],
          "code": {
            "coding": [
              {
                "display": "Other relevant issues or preferences about provision of care",
                "code": "CAREPLAN_OTHER_ISSUES",
                "system": "http://fhir.blackpear.com/bpc"
              }
            ]
          },
          "id": "CAREPLAN_OTHER_ISSUES",
          "resourceType": "List"
        },
        "id": "CAREPLAN_OTHER_ISSUES"
      },
      {
        "content": {
          "mode": "snapshot",
          "entry": [
            {
              "item": "Observation/MENTAL_CAPACITY_DECISION"
            }
          ],
          "code": {
            "coding": [
              {
                "display": "Mental capacity items",
                "code": "MENTAL_CAPACITY_ITEMS",
                "system": "http://fhir.blackpear.com/bpc"
              }
            ]
          },
          "id": "MENTAL_CAPACITY_ITEMS",
          "resourceType": "List"
        },
        "id": "MENTAL_CAPACITY_ITEMS"
      },
      {
        "content": {
          "date": "2020-11-03",
          "mode": "snapshot",
          "entry": [
            {
              "item": "Condition/5002070"
            },
            {
              "item": "Condition/500207103"
            },
            {
              "item": "Condition/50020786"
            },
            {
              "item": "Condition/50020772"
            },
            {
              "item": "Condition/5002071"
            },
            {
              "item": "Condition/50020729"
            },
            {
              "item": "Condition/50020727"
            },
            {
              "item": "Condition/50020724"
            }
          ],
          "code": {
            "text": "Active significant problems",
            "coding": [
              {
                "display": "Active significant problems",
                "code": "ACTIVE_SIGNIFICANT_PROBLEMS",
                "system": "http://fhir.blackpear.com/bpc"
              }
            ]
          },
          "id": "ACTIVE_PROBLEMS",
          "resourceType": "List"
        },
        "id": "ACTIVE_PROBLEMS"
      },
      {
        "content": {
          "date": "2020-11-03",
          "mode": "snapshot",
          "entry": [
            {
              "item": "MedicationPrescription/50020739"
            },
            {
              "item": "Medication/med-50020739"
            }
          ],
          "code": {
            "text": "Active repeat prescriptions",
            "coding": [
              {
                "display": "Active repeat prescriptions",
                "code": "ACTIVE_REPEATS",
                "system": "http://fhir.blackpear.com/bpc"
              }
            ]
          },
          "id": "ACTIVE_REPEATS",
          "resourceType": "List"
        },
        "id": "ACTIVE_REPEATS"
      },
      {
        "content": {
          "confidentiality": "N",
          "attester": [
            {
              "party": {
                "reference": "Practitioner/AUTHOR"
              },
              "mode": [
                "professional"
              ]
            }
          ],
          "author": [
            {
              "reference": "Practitioner/AUTHOR"
            }
          ],
          "subject": {
            "reference": "Patient/5d9da19d1d950e07f4d456d9"
          },
          "status": "final",
          "type": {
            "coding": [
              {
                "display": "Electronic Palliative Care Co-ordination System Record for SIDeR",
                "code": "SIDER_EPACCS",
                "system": "http://fhir.blackpear.com/bpc"
              }
            ]
          },
          "section": [
            {
              "content": {
                "reference": "CarePlan/EPACCS_CAREPLAN"
              },
              "title": "Care Plan"
            },
            {
              "content": {
                "reference": "Observation/INTERPRETER_NEEDED"
              },
              "title": "Need for an Interpreter"
            },
            {
              "content": {
                "reference": "Observation/LANGUAGE_SPOKEN"
              },
              "title": "Preferred Spoken Language"
            },
            {
              "content": {
                "reference": "List/DISABILITIES"
              },
              "title": "Disability"
            },
            {
              "content": {
                "reference": "Observation/MAIN_INFORMAL_CARER_AWARE"
              },
              "title": "Is Main Informal Carer Aware of Person's Prognosis?"
            },
            {
              "content": {
                "reference": "Observation/JUST_IN_CASE_BOX_ISSUED"
              },
              "title": "Anticipatory Medicines/Just in Case Box Issued"
            },
            {
              "content": {
                "reference": "List/EPACCS_ANTICIPATORY_MEDICINES"
              },
              "title": "Anticipatory Medicines"
            },
            {
              "content": {
                "reference": "Observation/DNACPR"
              },
              "title": "DNACPR decision made"
            },
            {
              "content": {
                "reference": "Observation/EPACCS_ACP_PROGRESS"
              },
              "title": "Advanced Care Plan Progress"
            },
            {
              "content": {
                "reference": "Observation/EPACCS_ACP_DISCUSSION_DATE"
              },
              "title": "The date of the last discussion about the end of life care plan"
            },
            {
              "content": {
                "reference": "List/CAREPLAN_OTHER_ISSUES"
              },
              "title": "Other relevant issues or preferences about provision of care"
            },
            {
              "content": {
                "reference": "Observation/EPACCS_MAIN_INFORMAL_CARER_AWARE_OF_PROGNOSIS"
              },
              "title": "Is main carer aware of prognosis"
            },
            {
              "content": {
                "reference": "Observation/CAREPLAN_DOCUMENTED"
              },
              "title": "Care plan documented"
            },
            {
              "content": {
                "reference": "Observation/REPEATS_DATE"
              },
              "title": "Repeat prescriptions last updated"
            },
            {
              "content": {
                "reference": "Observation/ON_END_OF_LIFE_CARE_REGISTER"
              },
              "title": "On End of Life Care Register"
            },
            {
              "content": {
                "reference": "Practitioner/LAST_AUTHOR"
              },
              "title": "Resource with id LAST_AUTHOR"
            },
            {
              "content": {
                "reference": "List/MENTAL_CAPACITY_ITEMS"
              },
              "title": "Items relating to mental capacity assessment"
            },
            {
              "content": {
                "reference": "Observation/INFORM_PATIENT_STATUS"
              },
              "title": "Informing the patient that EPaCCS will be shared, viewed and amended"
            },
            {
              "content": {
                "reference": "List/EPACCS_OTHER_DIAGNOSES_LIST"
              },
              "title": "Resource with id EPACCS_OTHER_DIAGNOSES_LIST"
            },
            {
              "content": {
                "reference": "DocumentReference/ADVANCE_CARE_PLAN"
              },
              "title": "Advance Care Plan"
            },
            {
              "content": {
                "reference": "DocumentReference/ADVANCE_STATEMENT"
              },
              "title": "Advance Statement"
            },
            {
              "content": {
                "reference": "DocumentReference/LPA_DOCUMENT"
              },
              "title": "Lasting Power of Attorney document"
            },
            {
              "content": {
                "reference": "List/ACTIVE_PROBLEMS"
              },
              "title": "Active significant problems"
            },
            {
              "content": {
                "reference": "List/ACTIVE_REPEATS"
              },
              "title": "Active repeat prescriptions"
            },
            {
              "content": {
                "reference": "Organization/AUTHOR_ORGANISATION"
              },
              "title": "Resource with id AUTHOR_ORGANISATION"
            },
            {
              "content": {
                "reference": "Organization/LAST_AUTHOR_ORGANISATION"
              },
              "title": "Resource with id LAST_AUTHOR_ORGANISATION"
            },
            {
              "content": {
                "reference": "Practitioner/USUAL_GP"
              },
              "title": "Resource with id USUAL_GP"
            }
          ],
          "date": "2020-11-03T11:10:50.656Z",
          "id": "EPACCS_COMPOSITION",
          "resourceType": "Composition"
        },
        "id": "EPACCS_COMPOSITION"
      },
      {
        "content": {
          "type": {
            "coding": [
              {
                "display": "Embedded FHIR R4 Bundle",
                "code": "EMBEDDED_R4_BUNDLE",
                "system": "http://fhir.blackpear.com/bpc"
              }
            ]
          },
          "subject": {
            "reference": "Patient/5d9da19d1d950e07f4d456d9"
          },
          "status": "current",
          "masterIdentifier": {
            "label": "R4 Bundle",
            "value": "https://endor.blackpear.com/pyruscloud/v1/esp/fhir/Binary/5fa13abe6344e4281b66e373"
          },
          "mimeType": "application/fhir+json; fhirVersion=4.0",
          "location": "https://endor.blackpear.com/pyruscloud/v1/esp/fhir/Binary/5fa13abe6344e4281b66e373",
          "created": "2020-11-03T11:10:54.498Z",
          "indexed": "2020-11-03T11:10:54.497Z",
          "description": "R4 Bundle",
          "author": [
            {
              "reference": "Practitioner/AUTHOR"
            }
          ],
          "extension": [
            {
              "valueString": "R4 Bundle",
              "url": "http://fhir.blackpear.com/document_attachment_title"
            }
          ],
          "id": "619a74e4-2662-4606-a241-1949683d5ded",
          "resourceType": "DocumentReference"
        },
        "id": "619a74e4-2662-4606-a241-1949683d5ded"
      },
      {
        "id": "509687be-223f-4edf-881c-e2e65bfd39a4",
        "content": {
          "resourceType": "Practitioner",
          "id": "509687be-223f-4edf-881c-e2e65bfd39a4"
        }
      },
      {
        "id": "eae97c42-ad3c-45c2-f4ba-333ec4334e86",
        "content": {
          "resourceType": "DocumentReference",
          "id": "eae97c42-ad3c-45c2-f4ba-333ec4334e86",
          "extension": [
            {
              "url": "http://fhir.blackpear.com/document_attachment_title",
              "valueString": "R4 Bundle"
            }
          ],
          "author": [
            {
              "reference": "Practitioner/AUTHOR"
            }
          ],
          "description": "R4 Bundle",
          "indexed": "2020-11-19T11:41:35.254Z",
          "created": "2020-11-19T11:41:35.255Z",
          "location": "https://endor.blackpear.com/pyruscloud/v1/esp/fhir/Binary/5fa13abe6344e4281b66e373",
          "mimeType": "application/fhir+json; fhirVersion=4.0",
          "masterIdentifier": {
            "value": "https://endor.blackpear.com/pyruscloud/v1/esp/fhir/Binary/5fa13abe6344e4281b66e373",
            "label": "R4 Bundle"
          },
          "status": "current",
          "subject": {
            "reference": "Patient/5d9da19d1d950e07f4d456d9"
          },
          "type": {
            "coding": [
              {
                "system": "http://fhir.blackpear.com/bpc",
                "code": "EMBEDDED_R4_BUNDLE",
                "display": "Embedded FHIR R4 Bundle"
              }
            ]
          }
        }
      },
      {
        "content": {
          "identifier": [
            {
              "value": "2395",
              "use": "secondary"
            },
            {
              "label": "NationalCode",
              "value": "G5687845"
            },
            {
              "label": "PrescriptionCode",
              "value": "265989"
            },
            {
              "label": "GmcCode",
              "value": "5687845"
            }
          ],
          "role": [
            {
              "text": "General Medical Practitioner",
              "coding": [
                {
                  "display": "Doctor",
                  "code": "doctor",
                  "system": "http://hl7.org/fhir/practitioner-role"
                },
                {
                  "display": "General Medical Practitioner",
                  "code": "GMP",
                  "system": "Role"
                }
              ]
            }
          ],
          "organization": {
            "reference": "Organization/A29390"
          },
          "name": {
            "prefix": [
              "Mr"
            ],
            "given": [
              "Black"
            ],
            "family": [
              "Pear"
            ],
            "text": "Mr Black Pear"
          },
          "id": "2395",
          "resourceType": "Practitioner"
        },
        "id": "2395"
      },
      {
        "content": {
          "type": {
            "coding": [
              {
                "display": "Embedded FHIR R4 Bundle",
                "code": "EMBEDDED_R4_BUNDLE",
                "system": "http://fhir.blackpear.com/bpc"
              }
            ]
          },
          "subject": {
            "reference": "Patient/5d9da19d1d950e07f4d456d9"
          },
          "status": "current",
          "masterIdentifier": {
            "label": "R4 Bundle",
            "value": "https://endor.blackpear.com/pyruscloud/v1/esp/fhir/Binary/5fa13abe6344e4281b66e373"
          },
          "mimeType": "application/fhir+json; fhirVersion=4.0",
          "location": "https://endor.blackpear.com/pyruscloud/v1/esp/fhir/Binary/5fa13abe6344e4281b66e373",
          "created": "2020-11-20T16:38:39.728Z",
          "indexed": "2020-11-20T16:38:39.727Z",
          "description": "R4 Bundle",
          "author": [
            {
              "reference": "Practitioner/AUTHOR"
            }
          ],
          "extension": [
            {
              "valueString": "R4 Bundle",
              "url": "http://fhir.blackpear.com/document_attachment_title"
            }
          ],
          "id": "ac556716-7447-493b-99ee-5745364a4b89",
          "resourceType": "DocumentReference"
        },
        "id": "ac556716-7447-493b-99ee-5745364a4b89"
      },
      {
        "id": "5066c9ee-c81f-4f92-c04c-be7b999c1fae",
        "content": {
          "resourceType": "Practitioner",
          "id": "5066c9ee-c81f-4f92-c04c-be7b999c1fae"
        }
      },
      {
        "id": "c8ad918b-8628-4c48-f025-fba9cd585236",
        "content": {
          "resourceType": "DocumentReference",
          "id": "c8ad918b-8628-4c48-f025-fba9cd585236",
          "extension": [
            {
              "url": "http://fhir.blackpear.com/document_attachment_title",
              "valueString": "R4 Bundle"
            }
          ],
          "author": [
            {
              "reference": "Practitioner/AUTHOR"
            }
          ],
          "description": "R4 Bundle",
          "indexed": "2020-11-20T16:48:58.667Z",
          "created": "2020-11-20T16:48:58.668Z",
          "location": "https://endor.blackpear.com/pyruscloud/v1/esp/fhir/Binary/5fa13abe6344e4281b66e373",
          "mimeType": "application/fhir+json; fhirVersion=4.0",
          "masterIdentifier": {
            "value": "https://endor.blackpear.com/pyruscloud/v1/esp/fhir/Binary/5fa13abe6344e4281b66e373",
            "label": "R4 Bundle"
          },
          "status": "current",
          "subject": {
            "reference": "Patient/5d9da19d1d950e07f4d456d9"
          },
          "type": {
            "coding": [
              {
                "system": "http://fhir.blackpear.com/bpc",
                "code": "EMBEDDED_R4_BUNDLE",
                "display": "Embedded FHIR R4 Bundle"
              }
            ]
          }
        }
      },
      {
        "content": {
          "identifier": [
            {
              "value": "A29390",
              "system": "http://www.datadictionary.nhs.uk/data_dictionary/attributes/o/org/organisation_code_de.asp"
            }
          ],
          "telecom": [
            {
              "value": "0191 1234567",
              "use": "work",
              "system": "phone"
            },
            {
              "value": "Practice.Test@Testing.com",
              "use": "work",
              "system": "email"
            },
            {
              "value": "0191 12347654",
              "use": "work",
              "system": "fax"
            }
          ],
          "address": [
            {
              "zip": "LS19 6BA",
              "state": "Yorkshire",
              "city": "Leeds",
              "line": [
                "Fulford Grange, Micklefield Lane",
                "Rawdon",
                "Rawdon"
              ],
              "text": "Fulford Grange, Micklefield Lane, Rawdon, Rawdon, Leeds, Yorkshire, LS19 6BA",
              "use": "work"
            }
          ],
          "name": "Partner Test CDB29390",
          "id": "4882",
          "resourceType": "Organization"
        },
        "id": "4882"
      },
      {
        "content": {
          "managingOrganization": {
            "identifier": {
              "value": "A29390",
              "system": "https://fhir.nhs.uk/Id/ods-organization-code"
            },
            "reference": "Organization/4882"
          },
          "identifier": [
            {
              "label": "NHS",
              "value": "9449303789",
              "system": "http://www.datadictionary.nhs.uk/data_dictionary/attributes/n/nhs/nhs_number_de.asp"
            }
          ],
          "telecom": [
            {
              "value": "0191123456",
              "use": "home",
              "system": "phone"
            },
            {
              "value": "0777123456",
              "use": "mobile",
              "system": "phone"
            }
          ],
          "address": [
            {
              "zip": "KT10 8ED",
              "state": "Surrey",
              "city": "Esher",
              "line": [
                "25 Imber Close"
              ],
              "text": "25 Imber Close, Esher, Surrey, KT10 8ED",
              "use": "home"
            }
          ],
          "birthDate": "1936-10-13",
          "gender": {
            "coding": [
              {
                "code": "F",
                "system": "http://hl7.org/fhir/v3/vs/AdministrativeGender"
              }
            ]
          },
          "name": [
            {
              "prefix": [
                "Ms"
              ],
              "given": [
                "Margaret"
              ],
              "family": [
                "Rhys"
              ],
              "text": "Ms Margaret Rhys",
              "use": "official"
            },
            {
              "text": "Mags",
              "use": "usual"
            }
          ],
          "extension": [
            {
              "valueCodeableConcept": {
                "text": "Regular",
                "coding": [
                  {
                    "display": "Regular",
                    "code": "4",
                    "system": "http://www.e-mis.com/emisopen/MedicalRecord/StatusType/PatientType"
                  }
                ]
              },
              "url": "http://fhir.blackpear.com/currentPatientType"
            },
            {
              "valueCodeableConcept": {
                "text": "Patient has presented",
                "coding": [
                  {
                    "display": "Patient has presented",
                    "code": "1",
                    "system": "http://www.e-mis.com/emisopen/MedicalRecord/StatusType/Code"
                  }
                ]
              },
              "url": "http://fhir.blackpear.com/currentRegistrationStatus"
            },
            {
              "valuePeriod": {
                "start": "2019-05-21"
              },
              "url": "http://fhir.blackpear.com/currentRegistrationPeriod"
            },
            {
              "valueString": "EMIS",
              "url": "http://fhir.blackpear.com/patientGPSystem"
            }
          ],
          "id": "5d9da19d1d950e07f4d456d9",
          "resourceType": "Patient"
        },
        "id": "5d9da19d1d950e07f4d456d9"
      },
      {
        "content": {
          "type": {
            "coding": [
              {
                "extension": [
                  {
                    "valueId": "2227611000000111",
                    "url": "http://hl7.org/fhir/StructureDefinition/coding-sctdescid"
                  }
                ],
                "display": "End of Life Care Coordination Summary\"",
                "code": "861421000000109",
                "system": "http://snomed.info/sct"
              },
              {
                "display": "Care Plan PDF",
                "code": "CARE_PLAN_PDF",
                "system": "http://fhir.blackpear.com/bpc"
              }
            ]
          },
          "subject": {
            "reference": "Patient/5d9da19d1d950e07f4d456d9"
          },
          "status": "current",
          "masterIdentifier": {
            "label": "SIDeR EPaCCS",
            "value": "https://endor.blackpear.com/pyruscloud/v1/esp/fhir/Binary/5f36aa06e388fa28165c334f"
          },
          "mimeType": "application/pdf",
          "location": "https://endor.blackpear.com/pyruscloud/v1/esp/fhir/Binary/5f36aa06e388fa28165c334f",
          "created": "2020-11-24T10:38:17.786Z",
          "indexed": "2020-11-24T10:38:17.785Z",
          "description": "SIDeR EPaCCS",
          "author": [
            {
              "reference": "Practitioner/AUTHOR"
            }
          ],
          "extension": [
            {
              "valueString": "SIDeR EPaCCS",
              "url": "http://fhir.blackpear.com/document_attachment_title"
            }
          ],
          "id": "cd5f3447-01c1-48a7-dd8e-44c39166f114",
          "resourceType": "DocumentReference"
        },
        "id": "cd5f3447-01c1-48a7-dd8e-44c39166f114"
      },
      {
        "content": {
          "type": {
            "coding": [
              {
                "display": "Embedded FHIR R4 Bundle",
                "code": "EMBEDDED_R4_BUNDLE",
                "system": "http://fhir.blackpear.com/bpc"
              }
            ]
          },
          "subject": {
            "reference": "Patient/5d9da19d1d950e07f4d456d9"
          },
          "status": "current",
          "masterIdentifier": {
            "label": "R4 Bundle",
            "value": "https://endor.blackpear.com/pyruscloud/v1/esp/fhir/Binary/5fa13abe6344e4281b66e373"
          },
          "mimeType": "application/fhir+json; fhirVersion=4.0",
          "location": "https://endor.blackpear.com/pyruscloud/v1/esp/fhir/Binary/5fa13abe6344e4281b66e373",
          "created": "2020-11-24T10:38:18.321Z",
          "indexed": "2020-11-24T10:38:18.319Z",
          "description": "R4 Bundle",
          "author": [
            {
              "reference": "Practitioner/AUTHOR"
            }
          ],
          "extension": [
            {
              "valueString": "R4 Bundle",
              "url": "http://fhir.blackpear.com/document_attachment_title"
            }
          ],
          "id": "3ae57860-04b4-407f-cc71-0ccc46374385",
          "resourceType": "DocumentReference"
        },
        "id": "3ae57860-04b4-407f-cc71-0ccc46374385"
      }
    ],
    "title": "SIDeR EPaCCS record",
    "link": []
  }
}